"rt","url","trial_type","trial_index","time_elapsed","internal_node_id","responses","stimulus","button_pressed","value","participant","key_press"
"6354.000000050291","consent_form.html","external-html","0","6423","0.0-0.0","","","","","",""
"38278.00000004936","instructions.html","external-html","1","44787","0.0-1.0","","","","","",""
"4020.0000000186265","","survey-text","2","48823","0.0-2.0","{""Q0"":""english""}","","","","",""
"5913.999999989755","","html-button-response","3","54737","0.0-3.0","","<p>We need to check your headphones or speakers are working well enough for the experiment to run.</p><p>When you click continue you will hear a voice name a <b>colour</b> and you will be asked to identify the colour.</p>","0","","",""
"2960.0000000209548","","audio-button-response","4","57697","0.0-4.0","","stimulus/colour1.ogg","6","","",""
"1591.0000000149012","","html-button-response","5","59301","0.0-5.0","","<p>Great, that worked; just one more check! </p>","0","","",""
"","","call-function","6","59303","0.0-6.0","","","","","",""
"","","call-function","7","59306","0.0-7.0","","","","","",""
"2245.999999984633","","audio-button-response","8","61552","0.0-8.0","","stimulus/colour3.ogg","7","","",""
"1153.9999999804422","","html-button-response","9","62726","0.0-9.0","","<p>Great, that worked! </p>","0","","",""
"4092.000000004191","","survey-text","10","66818","0.0-10.0","{""Q0"":""5e1765576b282c06b910368c""}","","","","",""
"","","survey-text","10","66818","0.0-10.0","","","","","9",""
"2222.9999999981374","","html-button-response","11","69041","0.0-11.0","","<p>Press continue to start the experiment! The word streams will start after you press <b>continue</b></p>","0","","",""
"null","","html-button-response","12","69553","0.0-12.0","","<html></html>","null","","",""
"","","call-function","13","69553","0.0-13.0","","stimulus/mp/phrase_mix_11.wav,stimulus/rr/rrrr_13.wav,stimulus/mp/phrase_mix_13.wav,stimulus/an/ANAN_12.wav,stimulus/probes/ANAN_89.wav,stimulus/rr/rrrr_10.wav,stimulus/rr/rrrr_12.wav,stimulus/an/ANAN_10.wav,stimulus/an/ANAN_13.wav,stimulus/mp/phrase_mix_10.wav,stimulus/probes/phrase_mix_38.wav,stimulus/mp/phrase_mix_12.wav,stimulus/an/ANAN_11.wav,stimulus/rr/rrrr_11.wav","","","",""
"","","call-function","13","69553","0.0-13.0","","","","","",""
"null","","audio-button-response","14","86184","0.0-14.0","","stimulus/mp/phrase_mix_11.wav","null","","",""
"2743.999999947846","","html-keyboard-response","15","88931","0.0-15.0","","<p>Did you hear any <b>four-word</b> phrases?","","","","89"
"null","","html-button-response","16","89186","0.0-16.0","","<html></html>","null","","",""
"null","","audio-button-response","17","105816","0.0-17.0","","stimulus/rr/rrrr_13.wav","null","","",""
"1517.9999999818392","","html-keyboard-response","18","107344","0.0-18.0","","<p>Did you hear any <b>four-word</b> phrases?","","","","78"
"null","","html-button-response","19","107599","0.0-19.0","","<html></html>","null","","",""
"null","","audio-button-response","20","124228","0.0-20.0","","stimulus/mp/phrase_mix_13.wav","null","","",""
"3036.999999952968","","html-keyboard-response","21","127265","0.0-21.0","","<p>Did you hear any <b>four-word</b> phrases?","","","","89"
"null","","html-button-response","22","127517","0.0-22.0","","<html></html>","null","","",""
"null","","audio-button-response","23","144149","0.0-23.0","","stimulus/an/ANAN_12.wav","null","","",""
"1325.0000000116415","","html-keyboard-response","24","145474","0.0-24.0","","<p>Did you hear any <b>four-word</b> phrases?","","","","89"
"null","","html-button-response","25","145729","0.0-25.0","","<html></html>","null","","",""
"null","","audio-button-response","26","162362","0.0-26.0","","stimulus/probes/ANAN_89.wav","null","","",""
"1462.9999999888241","","html-keyboard-response","27","163825","0.0-27.0","","<p>Did you hear any <b>four-word</b> phrases?","","","","89"
"null","","html-button-response","28","164077","0.0-28.0","","<html></html>","null","","",""
"null","","audio-button-response","29","180719","0.0-29.0","","stimulus/rr/rrrr_10.wav","null","","",""
"516.9999999925494","","html-keyboard-response","30","181236","0.0-30.0","","<p>Did you hear any <b>four-word</b> phrases?","","","","78"
"null","","html-button-response","31","181488","0.0-31.0","","<html></html>","null","","",""
"null","","audio-button-response","32","198118","0.0-32.0","","stimulus/rr/rrrr_12.wav","null","","",""
"445.0000000069849","","html-keyboard-response","33","198573","0.0-33.0","","<p>Did you hear any <b>four-word</b> phrases?","","","","78"
"null","","html-button-response","34","198825","0.0-34.0","","<html></html>","null","","",""
"null","","audio-button-response","35","215451","0.0-35.0","","stimulus/an/ANAN_10.wav","null","","",""
"538.0000000004657","","html-keyboard-response","36","215989","0.0-36.0","","<p>Did you hear any <b>four-word</b> phrases?","","","","78"
"null","","html-button-response","37","216249","0.0-37.0","","<html></html>","null","","",""
"null","","audio-button-response","38","232885","0.0-38.0","","stimulus/an/ANAN_13.wav","null","","",""
"704.9999999580905","","html-keyboard-response","39","233590","0.0-39.0","","<p>Did you hear any <b>four-word</b> phrases?","","","","78"
"null","","html-button-response","40","233850","0.0-40.0","","<html></html>","null","","",""
"null","","audio-button-response","41","250482","0.0-41.0","","stimulus/mp/phrase_mix_10.wav","null","","",""
"1378.000000026077","","html-keyboard-response","42","251860","0.0-42.0","","<p>Did you hear any <b>four-word</b> phrases?","","","","89"
"null","","html-button-response","43","252112","0.0-43.0","","<html></html>","null","","",""
"null","","audio-button-response","44","268749","0.0-44.0","","stimulus/probes/phrase_mix_38.wav","null","","",""
"1414.9999999790452","","html-keyboard-response","45","270164","0.0-45.0","","<p>Did you hear any <b>four-word</b> phrases?","","","","78"
"null","","html-button-response","46","270414","0.0-46.0","","<html></html>","null","","",""
"null","","audio-button-response","47","287044","0.0-47.0","","stimulus/mp/phrase_mix_12.wav","null","","",""
"1109.9999999860302","","html-keyboard-response","48","288164","0.0-48.0","","<p>Did you hear any <b>four-word</b> phrases?","","","","78"
"null","","html-button-response","49","288414","0.0-49.0","","<html></html>","null","","",""
"null","","audio-button-response","50","305046","0.0-50.0","","stimulus/an/ANAN_11.wav","null","","",""
"397.9999999864958","","html-keyboard-response","51","305444","0.0-51.0","","<p>Did you hear any <b>four-word</b> phrases?","","","","89"
"null","","html-button-response","52","305704","0.0-52.0","","<html></html>","null","","",""
"null","","audio-button-response","53","322334","0.0-53.0","","stimulus/rr/rrrr_11.wav","null","","",""
"622.0000000321306","","html-keyboard-response","54","322956","0.0-54.0","","<p>Did you hear any <b>four-word</b> phrases?","","","","78"
"1747.9999999632128","","html-button-response","55","324704","0.0-55.0","","<p>We will now ask you some additional questions.</p>","0","","",""
"7372.000000032131","","html-keyboard-response","56","332076","0.0-56.0","","<p>In the <b>last stream of words</b> you hear any <b>two-word</b> phrases?","","","","89"
"18032.00000000652","","survey-text","57","350136","0.0-57.0","{""Q0"":""said thing girl tell""}","","","","",""
"15902.999999991152","","survey-text","58","366049","0.0-58.0","{""Q0"":""not really its a lot to remember was said so fast""}","","","","",""
"17700.00000001164","","survey-text","59","383756","0.0-59.0","{""Q0"":""was interesting and really tested your ability toi recognise patterns ""}","","","","",""
