"rt","url","trial_type","trial_index","time_elapsed","internal_node_id","responses","stimulus","button_pressed","value","participant","key_press"
"9505.594999995083","consent_form.html","external-html","0","9555","0.0-0.0","","","","","",""
"27596.614999929443","instructions.html","external-html","1","37242","0.0-1.0","","","","","",""
"4252.224999945611","","survey-text","2","41506","0.0-2.0","{""Q0"":""English""}","","","","",""
"4304.345000069588","","html-button-response","3","45816","0.0-3.0","","<p>We need to check your headphones or speakers are working well enough for the experiment to run.</p><p>When you click continue you will hear a voice name a <b>colour</b> and you will be asked to identify the colour.</p>","0","","",""
"4125.759999966249","","audio-button-response","4","49948","0.0-4.0","","stimulus/colour1.ogg","6","","",""
"1634.5649999566376","","html-button-response","5","51586","0.0-5.0","","<p>Great, that worked; just one more check! </p>","0","","",""
"","","call-function","6","51588","0.0-6.0","","","","","",""
"","","call-function","7","51589","0.0-7.0","","","","","",""
"2548.285000026226","","audio-button-response","8","54140","0.0-8.0","","stimulus/colour3.ogg","7","","",""
"1236.6750000510365","","html-button-response","9","55381","0.0-9.0","","<p>Great, that worked! </p>","0","","",""
"5691.249999916181","","survey-text","10","61078","0.0-10.0","{""Q0"":""5d6172922648560016056044""}","","","","",""
"","","survey-text","10","61079","0.0-10.0","","","","","6",""
"2030.365000013262","","html-button-response","11","63112","0.0-11.0","","<p>Press continue to start the experiment! The word streams will start after you press <b>continue</b></p>","0","","",""
"null","","html-button-response","12","63623","0.0-12.0","","<html></html>","null","","",""
"","","call-function","13","63624","0.0-13.0","","stimulus/rr/rrrr_12.wav,stimulus/rr/rrrr_13.wav,stimulus/mp/phrase_mix_11.wav,stimulus/rr/rrrr_11.wav,stimulus/probes/rrrr_17.wav,stimulus/an/ANAN_10.wav,stimulus/mp/phrase_mix_13.wav,stimulus/rr/rrrr_10.wav,stimulus/an/ANAN_12.wav,stimulus/an/ANAN_13.wav,stimulus/probes/phrase_mix_38.wav,stimulus/an/ANAN_11.wav,stimulus/mp/phrase_mix_10.wav,stimulus/mp/phrase_mix_12.wav","","","",""
"","","call-function","13","63625","0.0-13.0","","","","","",""
"null","","audio-button-response","14","80258","0.0-14.0","","stimulus/rr/rrrr_12.wav","null","","",""
"4514.925000024959","","html-keyboard-response","15","84777","0.0-15.0","","<p>Did you hear any <b>four-word</b> phrases?","","","","78"
"null","","html-button-response","16","85031","0.0-16.0","","<html></html>","null","","",""
"null","","audio-button-response","17","101668","0.0-17.0","","stimulus/rr/rrrr_13.wav","null","","",""
"1866.1100000608712","","html-keyboard-response","18","103535","0.0-18.0","","<p>Did you hear any <b>four-word</b> phrases?","","","","78"
"null","","html-button-response","19","103789","0.0-19.0","","<html></html>","null","","",""
"null","","audio-button-response","20","120428","0.0-20.0","","stimulus/mp/phrase_mix_11.wav","null","","",""
"1807.6800000853837","","html-keyboard-response","21","122237","0.0-21.0","","<p>Did you hear any <b>four-word</b> phrases?","","","","78"
"null","","html-button-response","22","122494","0.0-22.0","","<html></html>","null","","",""
"null","","audio-button-response","23","139128","0.0-23.0","","stimulus/rr/rrrr_11.wav","null","","",""
"1818.5149999335408","","html-keyboard-response","24","140948","0.0-24.0","","<p>Did you hear any <b>four-word</b> phrases?","","","","78"
"null","","html-button-response","25","141203","0.0-25.0","","<html></html>","null","","",""
"null","","audio-button-response","26","157838","0.0-26.0","","stimulus/probes/rrrr_17.wav","null","","",""
"1968.8699999824166","","html-keyboard-response","27","159808","0.0-27.0","","<p>Did you hear any <b>four-word</b> phrases?","","","","78"
"null","","html-button-response","28","160061","0.0-28.0","","<html></html>","null","","",""
"null","","audio-button-response","29","176698","0.0-29.0","","stimulus/an/ANAN_10.wav","null","","",""
"3731.2199999578297","","html-keyboard-response","30","180430","0.0-30.0","","<p>Did you hear any <b>four-word</b> phrases?","","","","78"
"null","","html-button-response","31","180683","0.0-31.0","","<html></html>","null","","",""
"null","","audio-button-response","32","197318","0.0-32.0","","stimulus/mp/phrase_mix_13.wav","null","","",""
"2657.6149999164045","","html-keyboard-response","33","199977","0.0-33.0","","<p>Did you hear any <b>four-word</b> phrases?","","","","78"
"null","","html-button-response","34","200232","0.0-34.0","","<html></html>","null","","",""
"null","","audio-button-response","35","216867","0.0-35.0","","stimulus/rr/rrrr_10.wav","null","","",""
"2849.814999848604","","html-keyboard-response","36","219718","0.0-36.0","","<p>Did you hear any <b>four-word</b> phrases?","","","","78"
"null","","html-button-response","37","219975","0.0-37.0","","<html></html>","null","","",""
"null","","audio-button-response","38","236608","0.0-38.0","","stimulus/an/ANAN_12.wav","null","","",""
"2278.575000120327","","html-keyboard-response","39","238888","0.0-39.0","","<p>Did you hear any <b>four-word</b> phrases?","","","","78"
"null","","html-button-response","40","239140","0.0-40.0","","<html></html>","null","","",""
"null","","audio-button-response","41","255778","0.0-41.0","","stimulus/an/ANAN_13.wav","null","","",""
"2206.980000017211","","html-keyboard-response","42","257990","0.0-42.0","","<p>Did you hear any <b>four-word</b> phrases?","","","","78"
"null","","html-button-response","43","258242","0.0-43.0","","<html></html>","null","","",""
"null","","audio-button-response","44","274878","0.0-44.0","","stimulus/probes/phrase_mix_38.wav","null","","",""
"1601.8199999816716","","html-keyboard-response","45","276481","0.0-45.0","","<p>Did you hear any <b>four-word</b> phrases?","","","","89"
"null","","html-button-response","46","276735","0.0-46.0","","<html></html>","null","","",""
"null","","audio-button-response","47","293368","0.0-47.0","","stimulus/an/ANAN_11.wav","null","","",""
"1135.899999877438","","html-keyboard-response","48","294505","0.0-48.0","","<p>Did you hear any <b>four-word</b> phrases?","","","","78"
"null","","html-button-response","49","294758","0.0-49.0","","<html></html>","null","","",""
"null","","audio-button-response","50","311397","0.0-50.0","","stimulus/mp/phrase_mix_10.wav","null","","",""
"1253.5300001036376","","html-keyboard-response","51","312652","0.0-51.0","","<p>Did you hear any <b>four-word</b> phrases?","","","","78"
"null","","html-button-response","52","312907","0.0-52.0","","<html></html>","null","","",""
"null","","audio-button-response","53","329548","0.0-53.0","","stimulus/mp/phrase_mix_12.wav","null","","",""
"1138.6500000953674","","html-keyboard-response","54","330688","0.0-54.0","","<p>Did you hear any <b>four-word</b> phrases?","","","","78"
"3288.3750000037253","","html-button-response","55","333978","0.0-55.0","","<p>We will now ask you some additional questions.</p>","0","","",""
"3668.8599998597056","","html-keyboard-response","56","337649","0.0-56.0","","<p>In the <b>last stream of words</b> you hear any <b>two-word</b> phrases?","","","","89"
"21518.030000152066","","survey-text","57","359186","0.0-57.0","{""Q0"":""I can't remember any of them.""}","","","","",""
"26921.519999857992","","survey-text","58","386112","0.0-58.0","{""Q0"":""The words: car, want, thin, fat, 'heat up my room',""}","","","","",""
"2572.480000089854","","survey-text","59","388690","0.0-59.0","{""Q0"":""""}","","","","",""
