"rt","url","trial_type","trial_index","time_elapsed","internal_node_id","responses","stimulus","button_pressed","value","participant","key_press"
"13522.969999990892","consent_form.html","external-html","0","13553","0.0-0.0","","","","","",""
"27607.27500001667","instructions.html","external-html","1","41223","0.0-1.0","","","","","",""
"5233.449999999721","","survey-text","2","46460","0.0-2.0","{""Q0"":""English""}","","","","",""
"4214.1300000366755","","html-button-response","3","50676","0.0-3.0","","<p>We need to check your headphones or speakers are working well enough for the experiment to run.</p><p>When you click continue you will hear a voice name a <b>colour</b> and you will be asked to identify the colour.</p>","0","","",""
"2176.549999974668","","audio-button-response","4","52854","0.0-4.0","","stimulus/colour1.ogg","6","","",""
"1632.2349999682046","","html-button-response","5","54487","0.0-5.0","","<p>Great, that worked; just one more check! </p>","0","","",""
"","","call-function","6","54488","0.0-6.0","","","","","",""
"","","call-function","7","54488","0.0-7.0","","","","","",""
"1569.3049999536015","","audio-button-response","8","56058","0.0-8.0","","stimulus/colour3.ogg","7","","",""
"1192.1500000171363","","html-button-response","9","57251","0.0-9.0","","<p>Great, that worked! </p>","0","","",""
"9989.874999970198","","survey-text","10","67243","0.0-10.0","{""Q0"":""5dc3798489691e28bbca8afe""}","","","","",""
"","","survey-text","10","67243","0.0-10.0","","","","","4",""
"5316.2950000260025","","html-button-response","11","72560","0.0-11.0","","<p>Press continue to start the experiment! The word streams will start after you press <b>continue</b></p>","0","","",""
"null","","html-button-response","12","73063","0.0-12.0","","<html></html>","null","","",""
"","","call-function","13","73064","0.0-13.0","","stimulus/rr/rrrr_13.wav,stimulus/rr/rrrr_12.wav,stimulus/an/ANAN_13.wav,stimulus/an/ANAN_11.wav,stimulus/probes/rrrr_17.wav,stimulus/mp/phrase_mix_13.wav,stimulus/mp/phrase_mix_12.wav,stimulus/rr/rrrr_10.wav,stimulus/mp/phrase_mix_11.wav,stimulus/rr/rrrr_11.wav,stimulus/probes/phrase_mix_38.wav,stimulus/an/ANAN_10.wav,stimulus/an/ANAN_12.wav,stimulus/mp/phrase_mix_10.wav","","","",""
"","","call-function","13","73064","0.0-13.0","","","","","",""
"null","","audio-button-response","14","89700","0.0-14.0","","stimulus/rr/rrrr_13.wav","null","","",""
"3522.5849999696948","","html-keyboard-response","15","93225","0.0-15.0","","<p>Did you hear any <b>four-word</b> phrases?","","","","78"
"null","","html-button-response","16","93476","0.0-16.0","","<html></html>","null","","",""
"null","","audio-button-response","17","110110","0.0-17.0","","stimulus/rr/rrrr_12.wav","null","","",""
"753.484999993816","","html-keyboard-response","18","110865","0.0-18.0","","<p>Did you hear any <b>four-word</b> phrases?","","","","89"
"null","","html-button-response","19","111117","0.0-19.0","","<html></html>","null","","",""
"null","","audio-button-response","20","127751","0.0-20.0","","stimulus/an/ANAN_13.wav","null","","",""
"681.4250000170432","","html-keyboard-response","21","128433","0.0-21.0","","<p>Did you hear any <b>four-word</b> phrases?","","","","78"
"null","","html-button-response","22","128684","0.0-22.0","","<html></html>","null","","",""
"null","","audio-button-response","23","145321","0.0-23.0","","stimulus/an/ANAN_11.wav","null","","",""
"743.4849999845028","","html-keyboard-response","24","146065","0.0-24.0","","<p>Did you hear any <b>four-word</b> phrases?","","","","78"
"null","","html-button-response","25","146317","0.0-25.0","","<html></html>","null","","",""
"null","","audio-button-response","26","162950","0.0-26.0","","stimulus/probes/rrrr_17.wav","null","","",""
"865.6249999767169","","html-keyboard-response","27","163817","0.0-27.0","","<p>Did you hear any <b>four-word</b> phrases?","","","","89"
"null","","html-button-response","28","164069","0.0-28.0","","<html></html>","null","","",""
"null","","audio-button-response","29","180701","0.0-29.0","","stimulus/mp/phrase_mix_13.wav","null","","",""
"635.5050000129268","","html-keyboard-response","30","181337","0.0-30.0","","<p>Did you hear any <b>four-word</b> phrases?","","","","78"
"null","","html-button-response","31","181589","0.0-31.0","","<html></html>","null","","",""
"null","","audio-button-response","32","198221","0.0-32.0","","stimulus/mp/phrase_mix_12.wav","null","","",""
"587.3950000386685","","html-keyboard-response","33","198809","0.0-33.0","","<p>Did you hear any <b>four-word</b> phrases?","","","","78"
"null","","html-button-response","34","199060","0.0-34.0","","<html></html>","null","","",""
"null","","audio-button-response","35","215701","0.0-35.0","","stimulus/rr/rrrr_10.wav","null","","",""
"635.6599999708124","","html-keyboard-response","36","216337","0.0-36.0","","<p>Did you hear any <b>four-word</b> phrases?","","","","78"
"null","","html-button-response","37","216589","0.0-37.0","","<html></html>","null","","",""
"null","","audio-button-response","38","233221","0.0-38.0","","stimulus/mp/phrase_mix_11.wav","null","","",""
"594.9000000255182","","html-keyboard-response","39","233817","0.0-39.0","","<p>Did you hear any <b>four-word</b> phrases?","","","","78"
"null","","html-button-response","40","234069","0.0-40.0","","<html></html>","null","","",""
"null","","audio-button-response","41","250700","0.0-41.0","","stimulus/rr/rrrr_11.wav","null","","",""
"579.7550000133924","","html-keyboard-response","42","251280","0.0-42.0","","<p>Did you hear any <b>four-word</b> phrases?","","","","78"
"null","","html-button-response","43","251532","0.0-43.0","","<html></html>","null","","",""
"null","","audio-button-response","44","268170","0.0-44.0","","stimulus/probes/phrase_mix_38.wav","null","","",""
"669.5750000071712","","html-keyboard-response","45","268841","0.0-45.0","","<p>Did you hear any <b>four-word</b> phrases?","","","","89"
"null","","html-button-response","46","269092","0.0-46.0","","<html></html>","null","","",""
"null","","audio-button-response","47","285730","0.0-47.0","","stimulus/an/ANAN_10.wav","null","","",""
"549.6550000389107","","html-keyboard-response","48","286281","0.0-48.0","","<p>Did you hear any <b>four-word</b> phrases?","","","","78"
"null","","html-button-response","49","286532","0.0-49.0","","<html></html>","null","","",""
"null","","audio-button-response","50","303170","0.0-50.0","","stimulus/an/ANAN_12.wav","null","","",""
"717.720000015106","","html-keyboard-response","51","303889","0.0-51.0","","<p>Did you hear any <b>four-word</b> phrases?","","","","78"
"null","","html-button-response","52","304141","0.0-52.0","","<html></html>","null","","",""
"null","","audio-button-response","53","320780","0.0-53.0","","stimulus/mp/phrase_mix_10.wav","null","","",""
"763.7650000397116","","html-keyboard-response","54","321545","0.0-54.0","","<p>Did you hear any <b>four-word</b> phrases?","","","","78"
"2622.129999974277","","html-button-response","55","324168","0.0-55.0","","<p>We will now ask you some additional questions.</p>","0","","",""
"3104.0150000480935","","html-keyboard-response","56","327273","0.0-56.0","","<p>In the <b>last stream of words</b> you hear any <b>two-word</b> phrases?","","","","89"
"9554.4799999916","","survey-text","57","336837","0.0-57.0","{""Q0"":""cold girl""}","","","","",""
"20479.229999997187","","survey-text","58","357318","0.0-58.0","{""Q0"":""fast car""}","","","","",""
"36686.905000009574","","survey-text","59","394006","0.0-59.0","{""Q0"":""I don't know what you are trying to find out but it is very hard to discern or remember phrases or words ""}","","","","",""
