"rt","url","trial_type","trial_index","time_elapsed","internal_node_id","responses","stimulus","button_pressed","value","participant","key_press"
"15440.664999998262","consent_form.html","external-html","0","15483","0.0-0.0","","","","","",""
"40671.58500000005","instructions.html","external-html","1","56216","0.0-1.0","","","","","",""
"5190.464999999676","","survey-text","2","61428","0.0-2.0","{""Q0"":""English""}","","","","",""
"7832.3400000008405","","html-button-response","3","69267","0.0-3.0","","<p>We need to check your headphones or speakers are working well enough for the experiment to run.</p><p>When you click continue you will hear a voice name a <b>colour</b> and you will be asked to identify the colour.</p>","0","","",""
"3505.590000000666","","audio-button-response","4","72781","0.0-4.0","","stimulus/colour1.ogg","6","","",""
"1353.3449999995355","","html-button-response","5","74138","0.0-5.0","","<p>Great, that worked; just one more check! </p>","0","","",""
"","","call-function","6","74141","0.0-6.0","","","","","",""
"","","call-function","7","74142","0.0-7.0","","","","","",""
"2360.000000000582","","audio-button-response","8","76506","0.0-8.0","","stimulus/colour3.ogg","7","","",""
"1314.2950000001292","","html-button-response","9","77824","0.0-9.0","","<p>Great, that worked! </p>","0","","",""
"10408.719999999448","","survey-text","10","88241","0.0-10.0","{""Q0"":""5cc2e6f0b4a922001744f396""}","","","","",""
"","","survey-text","10","88241","0.0-10.0","","","","","5",""
"1690.904999999475","","html-button-response","11","89938","0.0-11.0","","<p>Press continue to start the experiment! The word streams will start after you press <b>continue</b></p>","0","","",""
"null","","html-button-response","12","90443","0.0-12.0","","<html></html>","null","","",""
"","","call-function","13","90445","0.0-13.0","","stimulus/mp/phrase_mix_13.wav,stimulus/an/ANAN_12.wav,stimulus/rr/rrrr_10.wav,stimulus/rr/rrrr_13.wav,stimulus/probes/phrase_mix_38.wav,stimulus/mp/phrase_mix_12.wav,stimulus/an/ANAN_11.wav,stimulus/an/ANAN_13.wav,stimulus/mp/phrase_mix_10.wav,stimulus/rr/rrrr_12.wav,stimulus/probes/ANAN_89.wav,stimulus/rr/rrrr_11.wav,stimulus/an/ANAN_10.wav,stimulus/mp/phrase_mix_11.wav","","","",""
"","","call-function","13","90445","0.0-13.0","","","","","",""
"null","","audio-button-response","14","107083","0.0-14.0","","stimulus/mp/phrase_mix_13.wav","null","","",""
"1422.4900000008347","","html-keyboard-response","15","108509","0.0-15.0","","<p>Did you hear any <b>four-word</b> phrases?","","","","78"
"null","","html-button-response","16","108762","0.0-16.0","","<html></html>","null","","",""
"null","","audio-button-response","17","125399","0.0-17.0","","stimulus/an/ANAN_12.wav","null","","",""
"1320.9249999999884","","html-keyboard-response","18","126722","0.0-18.0","","<p>Did you hear any <b>four-word</b> phrases?","","","","78"
"null","","html-button-response","19","126975","0.0-19.0","","<html></html>","null","","",""
"null","","audio-button-response","20","143619","0.0-20.0","","stimulus/rr/rrrr_10.wav","null","","",""
"613.5549999999057","","html-keyboard-response","21","144235","0.0-21.0","","<p>Did you hear any <b>four-word</b> phrases?","","","","89"
"null","","html-button-response","22","144488","0.0-22.0","","<html></html>","null","","",""
"null","","audio-button-response","23","161123","0.0-23.0","","stimulus/rr/rrrr_13.wav","null","","",""
"481.6350000000966","","html-keyboard-response","24","161606","0.0-24.0","","<p>Did you hear any <b>four-word</b> phrases?","","","","78"
"null","","html-button-response","25","161859","0.0-25.0","","<html></html>","null","","",""
"null","","audio-button-response","26","178500","0.0-26.0","","stimulus/probes/phrase_mix_38.wav","null","","",""
"1174.2799999992712","","html-keyboard-response","27","179676","0.0-27.0","","<p>Did you hear any <b>four-word</b> phrases?","","","","89"
"null","","html-button-response","28","179929","0.0-28.0","","<html></html>","null","","",""
"null","","audio-button-response","29","196569","0.0-29.0","","stimulus/mp/phrase_mix_12.wav","null","","",""
"689.6799999994982","","html-keyboard-response","30","197260","0.0-30.0","","<p>Did you hear any <b>four-word</b> phrases?","","","","89"
"null","","html-button-response","31","197513","0.0-31.0","","<html></html>","null","","",""
"null","","audio-button-response","32","214148","0.0-32.0","","stimulus/an/ANAN_11.wav","null","","",""
"752.585000002","","html-keyboard-response","33","214902","0.0-33.0","","<p>Did you hear any <b>four-word</b> phrases?","","","","78"
"null","","html-button-response","34","215156","0.0-34.0","","<html></html>","null","","",""
"null","","audio-button-response","35","231790","0.0-35.0","","stimulus/an/ANAN_13.wav","null","","",""
"805.7250000019849","","html-keyboard-response","36","232598","0.0-36.0","","<p>Did you hear any <b>four-word</b> phrases?","","","","78"
"null","","html-button-response","37","232851","0.0-37.0","","<html></html>","null","","",""
"null","","audio-button-response","38","249488","0.0-38.0","","stimulus/mp/phrase_mix_10.wav","null","","",""
"470.2350000006845","","html-keyboard-response","39","249960","0.0-39.0","","<p>Did you hear any <b>four-word</b> phrases?","","","","89"
"null","","html-button-response","40","250214","0.0-40.0","","<html></html>","null","","",""
"null","","audio-button-response","41","266854","0.0-41.0","","stimulus/rr/rrrr_12.wav","null","","",""
"492.27000000246335","","html-keyboard-response","42","267352","0.0-42.0","","<p>Did you hear any <b>four-word</b> phrases?","","","","78"
"null","","html-button-response","43","267605","0.0-43.0","","<html></html>","null","","",""
"null","","audio-button-response","44","284240","0.0-44.0","","stimulus/probes/ANAN_89.wav","null","","",""
"1335.6699999967823","","html-keyboard-response","45","285577","0.0-45.0","","<p>Did you hear any <b>four-word</b> phrases?","","","","89"
"null","","html-button-response","46","285830","0.0-46.0","","<html></html>","null","","",""
"null","","audio-button-response","47","302470","0.0-47.0","","stimulus/rr/rrrr_11.wav","null","","",""
"1956.964999997581","","html-keyboard-response","48","304430","0.0-48.0","","<p>Did you hear any <b>four-word</b> phrases?","","","","78"
"null","","html-button-response","49","304683","0.0-49.0","","<html></html>","null","","",""
"null","","audio-button-response","50","321319","0.0-50.0","","stimulus/an/ANAN_10.wav","null","","",""
"1780.5850000004284","","html-keyboard-response","51","323104","0.0-51.0","","<p>Did you hear any <b>four-word</b> phrases?","","","","78"
"null","","html-button-response","52","323356","0.0-52.0","","<html></html>","null","","",""
"null","","audio-button-response","53","339997","0.0-53.0","","stimulus/mp/phrase_mix_11.wav","null","","",""
"1831.1849999990663","","html-keyboard-response","54","341831","0.0-54.0","","<p>Did you hear any <b>four-word</b> phrases?","","","","78"
"1973.375000001397","","html-button-response","55","343806","0.0-55.0","","<p>We will now ask you some additional questions.</p>","0","","",""
"8124.235000002955","","html-keyboard-response","56","351933","0.0-56.0","","<p>In the <b>last stream of words</b> you hear any <b>two-word</b> phrases?","","","","78"
"21799.94000000076","","survey-text","57","373764","0.0-57.0","{""Q0"":""girl fish last ""}","","","","",""
"25080.979999998817","","survey-text","58","398851","0.0-58.0","{""Q0"":""salt chai car wine through want ""}","","","","",""
"2925.4450000007637","","survey-text","59","401784","0.0-59.0","{""Q0"":""""}","","","","",""
