"rt","url","trial_type","trial_index","time_elapsed","internal_node_id","responses","stimulus","button_pressed","value","participant","key_press"
"45991.99500004761","consent_form.html","external-html","0","46044","0.0-0.0","","","","","",""
"125289.4499998074","instructions.html","external-html","1","171399","0.0-1.0","","","","","",""
"5356.704999925569","","survey-text","2","176775","0.0-2.0","{""Q0"":""english""}","","","","",""
"3234.6349998842925","","html-button-response","3","180016","0.0-3.0","","<p>We need to check your headphones or speakers are working well enough for the experiment to run.</p><p>When you click continue you will hear a voice name a <b>colour</b> and you will be asked to identify the colour.</p>","0","","",""
"3267.774999840185","","audio-button-response","4","183292","0.0-4.0","","stimulus/colour1.ogg","6","","",""
"1645.1399999205023","","html-button-response","5","184941","0.0-5.0","","<p>Great, that worked; just one more check! </p>","0","","",""
"","","call-function","6","184944","0.0-6.0","","","","","",""
"","","call-function","7","184945","0.0-7.0","","","","","",""
"2724.835000000894","","audio-button-response","8","187674","0.0-8.0","","stimulus/colour3.ogg","7","","",""
"1594.8199999984354","","html-button-response","9","189273","0.0-9.0","","<p>Great, that worked! </p>","0","","",""
"4422.264999942854","","survey-text","10","193704","0.0-10.0","{""Q0"":""59a800138ae07f0001b134c8""}","","","","",""
"","","survey-text","10","193705","0.0-10.0","","","","","1",""
"18233.405000064522","","html-button-response","11","211942","0.0-11.0","","<p>Press continue to start the experiment! The word streams will start after you press <b>continue</b></p>","0","","",""
"null","","html-button-response","12","212448","0.0-12.0","","<html></html>","null","","",""
"","","call-function","13","212450","0.0-13.0","","stimulus/mp/phrase_mix_12.wav,stimulus/rr/rrrr_11.wav,stimulus/rr/rrrr_10.wav,stimulus/rr/rrrr_12.wav,stimulus/probes/phrase_mix_38.wav,stimulus/an/ANAN_12.wav,stimulus/mp/phrase_mix_11.wav,stimulus/mp/phrase_mix_13.wav,stimulus/an/ANAN_13.wav,stimulus/an/ANAN_10.wav,stimulus/probes/ANAN_89.wav,stimulus/mp/phrase_mix_10.wav,stimulus/rr/rrrr_13.wav,stimulus/an/ANAN_11.wav","","","",""
"","","call-function","13","212451","0.0-13.0","","","","","",""
"null","","audio-button-response","14","229085","0.0-14.0","","stimulus/mp/phrase_mix_12.wav","null","","",""
"5325.884999940172","","html-keyboard-response","15","234415","0.0-15.0","","<p>Did you hear any <b>four-word</b> phrases?","","","","78"
"null","","html-button-response","16","234677","0.0-16.0","","<html></html>","null","","",""
"null","","audio-button-response","17","251315","0.0-17.0","","stimulus/rr/rrrr_11.wav","null","","",""
"2078.06000020355","","html-keyboard-response","18","253395","0.0-18.0","","<p>Did you hear any <b>four-word</b> phrases?","","","","78"
"null","","html-button-response","19","253647","0.0-19.0","","<html></html>","null","","",""
"null","","audio-button-response","20","270285","0.0-20.0","","stimulus/rr/rrrr_10.wav","null","","",""
"5320.210000034422","","html-keyboard-response","21","275607","0.0-21.0","","<p>Did you hear any <b>four-word</b> phrases?","","","","78"
"null","","html-button-response","22","275859","0.0-22.0","","<html></html>","null","","",""
"null","","audio-button-response","23","292495","0.0-23.0","","stimulus/rr/rrrr_12.wav","null","","",""
"2036.060000071302","","html-keyboard-response","24","294533","0.0-24.0","","<p>Did you hear any <b>four-word</b> phrases?","","","","78"
"null","","html-button-response","25","294785","0.0-25.0","","<html></html>","null","","",""
"null","","audio-button-response","26","311425","0.0-26.0","","stimulus/probes/phrase_mix_38.wav","null","","",""
"1948.0149999726564","","html-keyboard-response","27","313375","0.0-27.0","","<p>Did you hear any <b>four-word</b> phrases?","","","","78"
"null","","html-button-response","28","313627","0.0-28.0","","<html></html>","null","","",""
"null","","audio-button-response","29","330268","0.0-29.0","","stimulus/an/ANAN_12.wav","null","","",""
"1560.1899998728186","","html-keyboard-response","30","331829","0.0-30.0","","<p>Did you hear any <b>four-word</b> phrases?","","","","78"
"null","","html-button-response","31","332082","0.0-31.0","","<html></html>","null","","",""
"null","","audio-button-response","32","348715","0.0-32.0","","stimulus/mp/phrase_mix_11.wav","null","","",""
"1808.3399999886751","","html-keyboard-response","33","350525","0.0-33.0","","<p>Did you hear any <b>four-word</b> phrases?","","","","78"
"null","","html-button-response","34","350777","0.0-34.0","","<html></html>","null","","",""
"null","","audio-button-response","35","367415","0.0-35.0","","stimulus/mp/phrase_mix_13.wav","null","","",""
"1203.8249999750406","","html-keyboard-response","36","368620","0.0-36.0","","<p>Did you hear any <b>four-word</b> phrases?","","","","78"
"null","","html-button-response","37","368875","0.0-37.0","","<html></html>","null","","",""
"null","","audio-button-response","38","385515","0.0-38.0","","stimulus/an/ANAN_13.wav","null","","",""
"1573.8450000062585","","html-keyboard-response","39","387090","0.0-39.0","","<p>Did you hear any <b>four-word</b> phrases?","","","","78"
"null","","html-button-response","40","387346","0.0-40.0","","<html></html>","null","","",""
"null","","audio-button-response","41","403985","0.0-41.0","","stimulus/an/ANAN_10.wav","null","","",""
"1864.2249999102205","","html-keyboard-response","42","405851","0.0-42.0","","<p>Did you hear any <b>four-word</b> phrases?","","","","78"
"null","","html-button-response","43","406103","0.0-43.0","","<html></html>","null","","",""
"null","","audio-button-response","44","422745","0.0-44.0","","stimulus/probes/ANAN_89.wav","null","","",""
"1634.3950000591576","","html-keyboard-response","45","424381","0.0-45.0","","<p>Did you hear any <b>four-word</b> phrases?","","","","78"
"null","","html-button-response","46","424633","0.0-46.0","","<html></html>","null","","",""
"null","","audio-button-response","47","441264","0.0-47.0","","stimulus/mp/phrase_mix_10.wav","null","","",""
"385.45499998144805","","html-keyboard-response","48","441651","0.0-48.0","","<p>Did you hear any <b>four-word</b> phrases?","","","","78"
"null","","html-button-response","49","441903","0.0-49.0","","<html></html>","null","","",""
"null","","audio-button-response","50","458544","0.0-50.0","","stimulus/rr/rrrr_13.wav","null","","",""
"561.1449999269098","","html-keyboard-response","51","459107","0.0-51.0","","<p>Did you hear any <b>four-word</b> phrases?","","","","78"
"null","","html-button-response","52","459360","0.0-52.0","","<html></html>","null","","",""
"null","","audio-button-response","53","475994","0.0-53.0","","stimulus/an/ANAN_11.wav","null","","",""
"515.1349999941885","","html-keyboard-response","54","476511","0.0-54.0","","<p>Did you hear any <b>four-word</b> phrases?","","","","78"
"1675.5950001534075","","html-button-response","55","478189","0.0-55.0","","<p>We will now ask you some additional questions.</p>","0","","",""
"3363.1700000260025","","html-keyboard-response","56","481555","0.0-56.0","","<p>In the <b>last stream of words</b> you hear any <b>two-word</b> phrases?","","","","89"
"22007.23999994807","","survey-text","57","503694","0.0-57.0","{""Q0"":""large girl wise thing low fat ""}","","","","",""
"32807.34999990091","","survey-text","58","536508","0.0-58.0","{""Q0"":""man wife blue green wise thing ""}","","","","",""
"4072.649999987334","","survey-text","59","540588","0.0-59.0","{""Q0"":""""}","","","","",""
