"rt","url","trial_type","trial_index","time_elapsed","internal_node_id","responses","stimulus","button_pressed","value","participant","key_press"
"28293.4949999908","consent_form.html","external-html","0","28373","0.0-0.0","","","","","",""
"63582.14000001317","instructions.html","external-html","1","92049","0.0-1.0","","","","","",""
"4688.3449999731965","","survey-text","2","96766","0.0-2.0","{""Q0"":""English""}","","","","",""
"5875.785000011092","","html-button-response","3","102651","0.0-3.0","","<p>We need to check your headphones or speakers are working well enough for the experiment to run.</p><p>When you click continue you will hear a voice name a <b>colour</b> and you will be asked to identify the colour.</p>","0","","",""
"5267.989999993006","","audio-button-response","4","107932","0.0-4.0","","stimulus/colour1.ogg","6","","",""
"1695.9400000050664","","html-button-response","5","109634","0.0-5.0","","<p>Great, that worked; just one more check! </p>","0","","",""
"","","call-function","6","109638","0.0-6.0","","","","","",""
"","","call-function","7","109640","0.0-7.0","","","","","",""
"1861.3950000144541","","audio-button-response","8","111507","0.0-8.0","","stimulus/colour3.ogg","7","","",""
"1736.9199999957345","","html-button-response","9","113249","0.0-9.0","","<p>Great, that worked! </p>","0","","",""
"8624.880000017583","","survey-text","10","121901","0.0-10.0","{""Q0"":""5e18bf202d112418cfd94a3b""}","","","","",""
"","","survey-text","10","121902","0.0-10.0","","","","","3",""
"2430.530000012368","","html-button-response","11","124336","0.0-11.0","","<p>Press continue to start the experiment! The word streams will start after you press <b>continue</b></p>","0","","",""
"null","","html-button-response","12","124840","0.0-12.0","","<html></html>","null","","",""
"","","call-function","13","124842","0.0-13.0","","stimulus/an/ANAN_10.wav,stimulus/rr/rrrr_12.wav,stimulus/rr/rrrr_13.wav,stimulus/mp/phrase_mix_12.wav,stimulus/probes/ANAN_89.wav,stimulus/an/ANAN_11.wav,stimulus/rr/rrrr_10.wav,stimulus/mp/phrase_mix_10.wav,stimulus/mp/phrase_mix_11.wav,stimulus/mp/phrase_mix_13.wav,stimulus/probes/rrrr_17.wav,stimulus/an/ANAN_12.wav,stimulus/rr/rrrr_11.wav,stimulus/an/ANAN_13.wav","","","",""
"","","call-function","13","124842","0.0-13.0","","","","","",""
"null","","audio-button-response","14","141484","0.0-14.0","","stimulus/an/ANAN_10.wav","null","","",""
"2927.75500001153","","html-keyboard-response","15","144415","0.0-15.0","","<p>Did you hear any <b>four-word</b> phrases?","","","","78"
"null","","html-button-response","16","144671","0.0-16.0","","<html></html>","null","","",""
"null","","audio-button-response","17","161315","0.0-17.0","","stimulus/rr/rrrr_12.wav","null","","",""
"3063.3749999979045","","html-keyboard-response","18","164380","0.0-18.0","","<p>Did you hear any <b>four-word</b> phrases?","","","","78"
"null","","html-button-response","19","164633","0.0-19.0","","<html></html>","null","","",""
"null","","audio-button-response","20","181275","0.0-20.0","","stimulus/rr/rrrr_13.wav","null","","",""
"1817.2799999883864","","html-keyboard-response","21","183095","0.0-21.0","","<p>Did you hear any <b>four-word</b> phrases?","","","","78"
"null","","html-button-response","22","183353","0.0-22.0","","<html></html>","null","","",""
"null","","audio-button-response","23","199995","0.0-23.0","","stimulus/mp/phrase_mix_12.wav","null","","",""
"2874.084999988554","","html-keyboard-response","24","202872","0.0-24.0","","<p>Did you hear any <b>four-word</b> phrases?","","","","89"
"null","","html-button-response","25","203126","0.0-25.0","","<html></html>","null","","",""
"null","","audio-button-response","26","219765","0.0-26.0","","stimulus/probes/ANAN_89.wav","null","","",""
"1215.505000000121","","html-keyboard-response","27","220983","0.0-27.0","","<p>Did you hear any <b>four-word</b> phrases?","","","","78"
"null","","html-button-response","28","221239","0.0-28.0","","<html></html>","null","","",""
"null","","audio-button-response","29","237876","0.0-29.0","","stimulus/an/ANAN_11.wav","null","","",""
"3058.470000018133","","html-keyboard-response","30","240937","0.0-30.0","","<p>Did you hear any <b>four-word</b> phrases?","","","","78"
"null","","html-button-response","31","241192","0.0-31.0","","<html></html>","null","","",""
"null","","audio-button-response","32","257827","0.0-32.0","","stimulus/rr/rrrr_10.wav","null","","",""
"1815.3850000235252","","html-keyboard-response","33","259645","0.0-33.0","","<p>Did you hear any <b>four-word</b> phrases?","","","","89"
"null","","html-button-response","34","259898","0.0-34.0","","<html></html>","null","","",""
"null","","audio-button-response","35","276537","0.0-35.0","","stimulus/mp/phrase_mix_10.wav","null","","",""
"3178.020000021206","","html-keyboard-response","36","279717","0.0-36.0","","<p>Did you hear any <b>four-word</b> phrases?","","","","78"
"null","","html-button-response","37","279974","0.0-37.0","","<html></html>","null","","",""
"null","","audio-button-response","38","296615","0.0-38.0","","stimulus/mp/phrase_mix_11.wav","null","","",""
"3975.899999990361","","html-keyboard-response","39","300594","0.0-39.0","","<p>Did you hear any <b>four-word</b> phrases?","","","","78"
"null","","html-button-response","40","300849","0.0-40.0","","<html></html>","null","","",""
"null","","audio-button-response","41","317485","0.0-41.0","","stimulus/mp/phrase_mix_13.wav","null","","",""
"3329.809999995632","","html-keyboard-response","42","320817","0.0-42.0","","<p>Did you hear any <b>four-word</b> phrases?","","","","78"
"null","","html-button-response","43","321072","0.0-43.0","","<html></html>","null","","",""
"null","","audio-button-response","44","337716","0.0-44.0","","stimulus/probes/rrrr_17.wav","null","","",""
"5334.795000002487","","html-keyboard-response","45","343054","0.0-45.0","","<p>Did you hear any <b>four-word</b> phrases?","","","","89"
"null","","html-button-response","46","343322","0.0-46.0","","<html></html>","null","","",""
"null","","audio-button-response","47","359964","0.0-47.0","","stimulus/an/ANAN_12.wav","null","","",""
"2492.995000007795","","html-keyboard-response","48","362460","0.0-48.0","","<p>Did you hear any <b>four-word</b> phrases?","","","","78"
"null","","html-button-response","49","362719","0.0-49.0","","<html></html>","null","","",""
"null","","audio-button-response","50","379353","0.0-50.0","","stimulus/rr/rrrr_11.wav","null","","",""
"2580.34499999485","","html-keyboard-response","51","381936","0.0-51.0","","<p>Did you hear any <b>four-word</b> phrases?","","","","78"
"null","","html-button-response","52","382189","0.0-52.0","","<html></html>","null","","",""
"null","","audio-button-response","53","398823","0.0-53.0","","stimulus/an/ANAN_13.wav","null","","",""
"2682.4499999929685","","html-keyboard-response","54","401509","0.0-54.0","","<p>Did you hear any <b>four-word</b> phrases?","","","","78"
"2157.9900000069756","","html-button-response","55","403670","0.0-55.0","","<p>We will now ask you some additional questions.</p>","0","","",""
"6660.525000013877","","html-keyboard-response","56","410333","0.0-56.0","","<p>In the <b>last stream of words</b> you hear any <b>two-word</b> phrases?","","","","89"
"20937.210000003688","","survey-text","57","431327","0.0-57.0","{""Q0"":""cold food small cat large dog""}","","","","",""
"18507.07500000135","","survey-text","58","449846","0.0-58.0","{""Q0"":""large tree ""}","","","","",""
"2759.84499999322","","survey-text","59","452613","0.0-59.0","{""Q0"":""""}","","","","",""
