"rt","url","trial_type","trial_index","time_elapsed","internal_node_id","responses","stimulus","button_pressed","value","participant","key_press"
"18015.480000001844","consent_form.html","external-html","0","18070","0.0-0.0","","","","","",""
"29866.620000000694","instructions.html","external-html","1","48036","0.0-1.0","","","","","",""
"4821.524999999383","","survey-text","2","52870","0.0-2.0","{""Q0"":""English""}","","","","",""
"6427.21999999776","","html-button-response","3","59301","0.0-3.0","","<p>We need to check your headphones or speakers are working well enough for the experiment to run.</p><p>When you click continue you will hear a voice name a <b>colour</b> and you will be asked to identify the colour.</p>","0","","",""
"2760.614999999234","","audio-button-response","4","62070","0.0-4.0","","stimulus/colour1.ogg","6","","",""
"1610.4300000006333","","html-button-response","5","63684","0.0-5.0","","<p>Great, that worked; just one more check! </p>","0","","",""
"","","call-function","6","63687","0.0-6.0","","","","","",""
"","","call-function","7","63688","0.0-7.0","","","","","",""
"1577.869999997347","","audio-button-response","8","65269","0.0-8.0","","stimulus/colour3.ogg","7","","",""
"1267.8449999984878","","html-button-response","9","66540","0.0-9.0","","<p>Great, that worked! </p>","0","","",""
"7970.080000002781","","survey-text","10","74517","0.0-10.0","{""Q0"":""5aa83cdd1ade740001b97ea5""}","","","","",""
"","","survey-text","10","74518","0.0-10.0","","","","","2",""
"3756.745000002411","","html-button-response","11","78278","0.0-11.0","","<p>Press continue to start the experiment! The word streams will start after you press <b>continue</b></p>","0","","",""
"null","","html-button-response","12","78782","0.0-12.0","","<html></html>","null","","",""
"","","call-function","13","78784","0.0-13.0","","stimulus/rr/rrrr_13.wav,stimulus/rr/rrrr_12.wav,stimulus/mp/phrase_mix_10.wav,stimulus/an/ANAN_13.wav,stimulus/probes/rrrr_17.wav,stimulus/rr/rrrr_11.wav,stimulus/mp/phrase_mix_12.wav,stimulus/rr/rrrr_10.wav,stimulus/an/ANAN_11.wav,stimulus/mp/phrase_mix_13.wav,stimulus/probes/phrase_mix_38.wav,stimulus/an/ANAN_10.wav,stimulus/mp/phrase_mix_11.wav,stimulus/an/ANAN_12.wav","","","",""
"","","call-function","13","78784","0.0-13.0","","","","","",""
"null","","audio-button-response","14","95426","0.0-14.0","","stimulus/rr/rrrr_13.wav","null","","",""
"6027.389999999286","","html-keyboard-response","15","101457","0.0-15.0","","<p>Did you hear any <b>four-word</b> phrases?","","","","89"
"null","","html-button-response","16","101709","0.0-16.0","","<html></html>","null","","",""
"null","","audio-button-response","17","118347","0.0-17.0","","stimulus/rr/rrrr_12.wav","null","","",""
"1441.6149999997288","","html-keyboard-response","18","119790","0.0-18.0","","<p>Did you hear any <b>four-word</b> phrases?","","","","89"
"null","","html-button-response","19","120042","0.0-19.0","","<html></html>","null","","",""
"null","","audio-button-response","20","136677","0.0-20.0","","stimulus/mp/phrase_mix_10.wav","null","","",""
"807.9899999975169","","html-keyboard-response","21","137487","0.0-21.0","","<p>Did you hear any <b>four-word</b> phrases?","","","","89"
"null","","html-button-response","22","137739","0.0-22.0","","<html></html>","null","","",""
"null","","audio-button-response","23","154378","0.0-23.0","","stimulus/an/ANAN_13.wav","null","","",""
"791.8549999994866","","html-keyboard-response","24","155171","0.0-24.0","","<p>Did you hear any <b>four-word</b> phrases?","","","","89"
"null","","html-button-response","25","155424","0.0-25.0","","<html></html>","null","","",""
"null","","audio-button-response","26","172058","0.0-26.0","","stimulus/probes/rrrr_17.wav","null","","",""
"1322.0049999981711","","html-keyboard-response","27","173382","0.0-27.0","","<p>Did you hear any <b>four-word</b> phrases?","","","","78"
"null","","html-button-response","28","173634","0.0-28.0","","<html></html>","null","","",""
"null","","audio-button-response","29","190269","0.0-29.0","","stimulus/rr/rrrr_11.wav","null","","",""
"3089.8699999997916","","html-keyboard-response","30","193360","0.0-30.0","","<p>Did you hear any <b>four-word</b> phrases?","","","","78"
"null","","html-button-response","31","193612","0.0-31.0","","<html></html>","null","","",""
"null","","audio-button-response","32","210250","0.0-32.0","","stimulus/mp/phrase_mix_12.wav","null","","",""
"1252.715000002354","","html-keyboard-response","33","211504","0.0-33.0","","<p>Did you hear any <b>four-word</b> phrases?","","","","89"
"null","","html-button-response","34","211757","0.0-34.0","","<html></html>","null","","",""
"null","","audio-button-response","35","228390","0.0-35.0","","stimulus/rr/rrrr_10.wav","null","","",""
"1272.2549999998591","","html-keyboard-response","36","229664","0.0-36.0","","<p>Did you hear any <b>four-word</b> phrases?","","","","89"
"null","","html-button-response","37","229916","0.0-37.0","","<html></html>","null","","",""
"null","","audio-button-response","38","246551","0.0-38.0","","stimulus/an/ANAN_11.wav","null","","",""
"1194.019999999","","html-keyboard-response","39","247746","0.0-39.0","","<p>Did you hear any <b>four-word</b> phrases?","","","","89"
"null","","html-button-response","40","247999","0.0-40.0","","<html></html>","null","","",""
"null","","audio-button-response","41","264631","0.0-41.0","","stimulus/mp/phrase_mix_13.wav","null","","",""
"1197.8199999975623","","html-keyboard-response","42","265833","0.0-42.0","","<p>Did you hear any <b>four-word</b> phrases?","","","","89"
"null","","html-button-response","43","266086","0.0-43.0","","<html></html>","null","","",""
"null","","audio-button-response","44","282722","0.0-44.0","","stimulus/probes/phrase_mix_38.wav","null","","",""
"1232.8549999983516","","html-keyboard-response","45","283957","0.0-45.0","","<p>Did you hear any <b>four-word</b> phrases?","","","","89"
"null","","html-button-response","46","284208","0.0-46.0","","<html></html>","null","","",""
"null","","audio-button-response","47","300843","0.0-47.0","","stimulus/an/ANAN_10.wav","null","","",""
"1640.5799999993178","","html-keyboard-response","48","302485","0.0-48.0","","<p>Did you hear any <b>four-word</b> phrases?","","","","89"
"null","","html-button-response","49","302738","0.0-49.0","","<html></html>","null","","",""
"null","","audio-button-response","50","319373","0.0-50.0","","stimulus/mp/phrase_mix_11.wav","null","","",""
"2167.459999996936","","html-keyboard-response","51","321542","0.0-51.0","","<p>Did you hear any <b>four-word</b> phrases?","","","","78"
"null","","html-button-response","52","321795","0.0-52.0","","<html></html>","null","","",""
"null","","audio-button-response","53","338434","0.0-53.0","","stimulus/an/ANAN_12.wav","null","","",""
"1455.98500000051","","html-keyboard-response","54","339891","0.0-54.0","","<p>Did you hear any <b>four-word</b> phrases?","","","","89"
"3032.6750000022002","","html-button-response","55","342926","0.0-55.0","","<p>We will now ask you some additional questions.</p>","0","","",""
"5439.500000000349","","html-keyboard-response","56","348367","0.0-56.0","","<p>In the <b>last stream of words</b> you hear any <b>two-word</b> phrases?","","","","89"
"21048.080000000482","","survey-text","57","369431","0.0-57.0","{""Q0"":""man shy fat wife dog thin frog""}","","","","",""
"26442.925000003015","","survey-text","58","395880","0.0-58.0","{""Q0"":""sky girl ""}","","","","",""
"1594.23500000051","","survey-text","59","397481","0.0-59.0","{""Q0"":""""}","","","","",""
