"rt","url","trial_type","trial_index","time_elapsed","internal_node_id","responses","stimulus","button_pressed","value","participant","key_press"
"8481.379999997444","consent_form.html","external-html","0","8539","0.0-0.0","","","","","",""
"37425.12500000885","instructions.html","external-html","1","46049","0.0-1.0","","","","","",""
"5532.355000003008","","survey-text","2","51588","0.0-2.0","{""Q0"":""english""}","","","","",""
"2708.8800000055926","","html-button-response","3","54299","0.0-3.0","","<p>We need to check your headphones or speakers are working well enough for the experiment to run.</p><p>When you click continue you will hear a voice name a <b>colour</b> and you will be asked to identify the colour.</p>","0","","",""
"2963.85499999451","","audio-button-response","4","57266","0.0-4.0","","stimulus/colour1.ogg","6","","",""
"2742.8450000006706","","html-button-response","5","60010","0.0-5.0","","<p>Great, that worked; just one more check! </p>","0","","",""
"","","call-function","6","60010","0.0-6.0","","","","","",""
"","","call-function","7","60011","0.0-7.0","","","","","",""
"3579.9350000015693","","audio-button-response","8","63592","0.0-8.0","","stimulus/colour3.ogg","7","","",""
"1186.199999996461","","html-button-response","9","64779","0.0-9.0","","<p>Great, that worked! </p>","0","","",""
"4496.205000003101","","survey-text","10","69277","0.0-10.0","{""Q0"":""5db8bb497fb47f0012609f79""}","","","","",""
"","","survey-text","10","69278","0.0-10.0","","","","","9",""
"3428.429999999935","","html-button-response","11","72707","0.0-11.0","","<p>Press continue to start the experiment! The word streams will start after you press <b>continue</b></p>","0","","",""
"null","","html-button-response","12","73210","0.0-12.0","","<html></html>","null","","",""
"","","call-function","13","73211","0.0-13.0","","stimulus/rr/rrrr_13.wav,stimulus/an/ANAN_10.wav,stimulus/mp/phrase_mix_12.wav,stimulus/rr/rrrr_12.wav,stimulus/probes/phrase_mix_38.wav,stimulus/an/ANAN_13.wav,stimulus/mp/phrase_mix_10.wav,stimulus/an/ANAN_11.wav,stimulus/mp/phrase_mix_11.wav,stimulus/an/ANAN_12.wav,stimulus/probes/ANAN_89.wav,stimulus/rr/rrrr_10.wav,stimulus/mp/phrase_mix_13.wav,stimulus/rr/rrrr_11.wav","","","",""
"","","call-function","13","73211","0.0-13.0","","","","","",""
"null","","audio-button-response","14","89850","0.0-14.0","","stimulus/rr/rrrr_13.wav","null","","",""
"3532.4649999965914","","html-keyboard-response","15","93383","0.0-15.0","","<p>Did you hear any <b>four-word</b> phrases?","","","","89"
"null","","html-button-response","16","93634","0.0-16.0","","<html></html>","null","","",""
"null","","audio-button-response","17","110278","0.0-17.0","","stimulus/an/ANAN_10.wav","null","","",""
"5003.249999994296","","html-keyboard-response","18","115282","0.0-18.0","","<p>Did you hear any <b>four-word</b> phrases?","","","","89"
"null","","html-button-response","19","115537","0.0-19.0","","<html></html>","null","","",""
"null","","audio-button-response","20","132180","0.0-20.0","","stimulus/mp/phrase_mix_12.wav","null","","",""
"6387.235000001965","","html-keyboard-response","21","138568","0.0-21.0","","<p>Did you hear any <b>four-word</b> phrases?","","","","89"
"null","","html-button-response","22","138821","0.0-22.0","","<html></html>","null","","",""
"null","","audio-button-response","23","155464","0.0-23.0","","stimulus/rr/rrrr_12.wav","null","","",""
"1384.9300000001676","","html-keyboard-response","24","156850","0.0-24.0","","<p>Did you hear any <b>four-word</b> phrases?","","","","78"
"null","","html-button-response","25","157101","0.0-25.0","","<html></html>","null","","",""
"null","","audio-button-response","26","173745","0.0-26.0","","stimulus/probes/phrase_mix_38.wav","null","","",""
"1237.585000009858","","html-keyboard-response","27","174983","0.0-27.0","","<p>Did you hear any <b>four-word</b> phrases?","","","","89"
"null","","html-button-response","28","175236","0.0-28.0","","<html></html>","null","","",""
"null","","audio-button-response","29","191880","0.0-29.0","","stimulus/an/ANAN_13.wav","null","","",""
"1910.4800000059186","","html-keyboard-response","30","193791","0.0-30.0","","<p>Did you hear any <b>four-word</b> phrases?","","","","78"
"null","","html-button-response","31","194045","0.0-31.0","","<html></html>","null","","",""
"null","","audio-button-response","32","210688","0.0-32.0","","stimulus/mp/phrase_mix_10.wav","null","","",""
"932.0149999985006","","html-keyboard-response","33","211621","0.0-33.0","","<p>Did you hear any <b>four-word</b> phrases?","","","","89"
"null","","html-button-response","34","211872","0.0-34.0","","<html></html>","null","","",""
"null","","audio-button-response","35","228515","0.0-35.0","","stimulus/an/ANAN_11.wav","null","","",""
"690.7800000044517","","html-keyboard-response","36","229207","0.0-36.0","","<p>Did you hear any <b>four-word</b> phrases?","","","","78"
"null","","html-button-response","37","229462","0.0-37.0","","<html></html>","null","","",""
"null","","audio-button-response","38","246105","0.0-38.0","","stimulus/mp/phrase_mix_11.wav","null","","",""
"852.245000001858","","html-keyboard-response","39","246958","0.0-39.0","","<p>Did you hear any <b>four-word</b> phrases?","","","","78"
"null","","html-button-response","40","247213","0.0-40.0","","<html></html>","null","","",""
"null","","audio-button-response","41","263857","0.0-41.0","","stimulus/an/ANAN_12.wav","null","","",""
"977.5200000003679","","html-keyboard-response","42","264835","0.0-42.0","","<p>Did you hear any <b>four-word</b> phrases?","","","","78"
"null","","html-button-response","43","265087","0.0-43.0","","<html></html>","null","","",""
"null","","audio-button-response","44","281732","0.0-44.0","","stimulus/probes/ANAN_89.wav","null","","",""
"1051.1200000037206","","html-keyboard-response","45","282783","0.0-45.0","","<p>Did you hear any <b>four-word</b> phrases?","","","","89"
"null","","html-button-response","46","283037","0.0-46.0","","<html></html>","null","","",""
"null","","audio-button-response","47","299680","0.0-47.0","","stimulus/rr/rrrr_10.wav","null","","",""
"972.4249999999302","","html-keyboard-response","48","300653","0.0-48.0","","<p>Did you hear any <b>four-word</b> phrases?","","","","78"
"null","","html-button-response","49","300908","0.0-49.0","","<html></html>","null","","",""
"null","","audio-button-response","50","317548","0.0-50.0","","stimulus/mp/phrase_mix_13.wav","null","","",""
"2699.1149999957997","","html-keyboard-response","51","320248","0.0-51.0","","<p>Did you hear any <b>four-word</b> phrases?","","","","78"
"null","","html-button-response","52","320502","0.0-52.0","","<html></html>","null","","",""
"null","","audio-button-response","53","337146","0.0-53.0","","stimulus/rr/rrrr_11.wav","null","","",""
"1127.3999999975786","","html-keyboard-response","54","338274","0.0-54.0","","<p>Did you hear any <b>four-word</b> phrases?","","","","78"
"2130.3849999967497","","html-button-response","55","340405","0.0-55.0","","<p>We will now ask you some additional questions.</p>","0","","",""
"4081.270000009681","","html-keyboard-response","56","344487","0.0-56.0","","<p>In the <b>last stream of words</b> you hear any <b>two-word</b> phrases?","","","","89"
"27941.374999994878","","survey-text","57","372430","0.0-57.0","{""Q0"":""arm\nfish\nhis \n""}","","","","",""
"21660.235000003013","","survey-text","58","394093","0.0-58.0","{""Q0"":""dirty\ngirl\nfish\nstream\narm\nher""}","","","","",""
"5582.305000003544","","survey-text","59","399679","0.0-59.0","{""Q0"":""""}","","","","",""
