"rt","url","trial_type","trial_index","time_elapsed","internal_node_id","responses","stimulus","button_pressed","value","participant","key_press"
"7340.799999999999","consent_form.html","external-html","0","7384","0.0-0.0","","","","","",""
"14898.499999999996","instructions.html","external-html","1","22456","0.0-1.0","","","","","",""
"6155.199999999997","","survey-text","2","28626","0.0-2.0","{""Q0"":""English""}","","","","",""
"4957.700000000004","","html-button-response","3","33599","0.0-3.0","","<p>We need to check your headphones or speakers are working well enough for the experiment to run.</p><p>When you click continue you will hear a voice name a <b>colour</b> and you will be asked to identify the colour.</p>","0","","",""
"2740.600000000006","","audio-button-response","4","37236","0.0-4.0","","stimulus/colour1.ogg","6","","",""
"1107.300000000003","","html-button-response","5","38351","0.0-5.0","","<p>Great, that worked; just one more check! </p>","0","","",""
"","","call-function","6","38355","0.0-6.0","","","","","",""
"","","call-function","7","38358","0.0-7.0","","","","","",""
"1740.7000000000043","","audio-button-response","8","40108","0.0-8.0","","stimulus/colour3.ogg","7","","",""
"1129.8999999999941","","html-button-response","9","41250","0.0-9.0","","<p>Great, that worked! </p>","0","","",""
"2713.4000000000014","","survey-text","10","43986","0.0-10.0","{""Q0"":""5e4289dbc3e7db10f7fbf429""}","","","","",""
"","","survey-text","10","43988","0.0-10.0","","","","","9",""
"2554.300000000003","","html-button-response","11","46551","0.0-11.0","","<p>Press continue to start the experiment! The word streams will start after you press <b>continue</b></p>","0","","",""
"null","","html-button-response","12","47077","0.0-12.0","","<html></html>","null","","",""
"","","call-function","13","47079","0.0-13.0","","stimulus/mp/phrase_mix_10.wav,stimulus/rr/rrrr_13.wav,stimulus/rr/rrrr_12.wav,stimulus/an/ANAN_10.wav,stimulus/probes/rrrr_17.wav,stimulus/an/ANAN_12.wav,stimulus/rr/rrrr_10.wav,stimulus/an/ANAN_13.wav,stimulus/mp/phrase_mix_13.wav,stimulus/an/ANAN_11.wav,stimulus/probes/phrase_mix_38.wav,stimulus/mp/phrase_mix_12.wav,stimulus/mp/phrase_mix_11.wav,stimulus/rr/rrrr_11.wav","","","",""
"","","call-function","13","47079","0.0-13.0","","","","","",""
"null","","audio-button-response","14","63718","0.0-14.0","","stimulus/mp/phrase_mix_10.wav","null","","",""
"2368.899999999994","","html-keyboard-response","15","66091","0.0-15.0","","<p>Did you hear any <b>four-word</b> phrases?","","","","89"
"null","","html-button-response","16","66365","0.0-16.0","","<html></html>","null","","",""
"null","","audio-button-response","17","83007","0.0-17.0","","stimulus/rr/rrrr_13.wav","null","","",""
"1389.3999999999941","","html-keyboard-response","18","84401","0.0-18.0","","<p>Did you hear any <b>four-word</b> phrases?","","","","89"
"null","","html-button-response","19","84665","0.0-19.0","","<html></html>","null","","",""
"null","","audio-button-response","20","101307","0.0-20.0","","stimulus/rr/rrrr_12.wav","null","","",""
"2657.199999999997","","html-keyboard-response","21","103967","0.0-21.0","","<p>Did you hear any <b>four-word</b> phrases?","","","","89"
"null","","html-button-response","22","104235","0.0-22.0","","<html></html>","null","","",""
"null","","audio-button-response","23","120877","0.0-23.0","","stimulus/an/ANAN_10.wav","null","","",""
"1006.3000000000175","","html-keyboard-response","24","121888","0.0-24.0","","<p>Did you hear any <b>four-word</b> phrases?","","","","89"
"null","","html-button-response","25","122161","0.0-25.0","","<html></html>","null","","",""
"null","","audio-button-response","26","138797","0.0-26.0","","stimulus/probes/rrrr_17.wav","null","","",""
"8470.199999999982","","html-keyboard-response","27","147270","0.0-27.0","","<p>Did you hear any <b>four-word</b> phrases?","","","","89"
"null","","html-button-response","28","147546","0.0-28.0","","<html></html>","null","","",""
"null","","audio-button-response","29","164187","0.0-29.0","","stimulus/an/ANAN_12.wav","null","","",""
"875.1000000000058","","html-keyboard-response","30","165065","0.0-30.0","","<p>Did you hear any <b>four-word</b> phrases?","","","","89"
"null","","html-button-response","31","165334","0.0-31.0","","<html></html>","null","","",""
"null","","audio-button-response","32","181977","0.0-32.0","","stimulus/rr/rrrr_10.wav","null","","",""
"731.8999999999942","","html-keyboard-response","33","182716","0.0-33.0","","<p>Did you hear any <b>four-word</b> phrases?","","","","78"
"null","","html-button-response","34","182995","0.0-34.0","","<html></html>","null","","",""
"null","","audio-button-response","35","199637","0.0-35.0","","stimulus/an/ANAN_13.wav","null","","",""
"3269","","html-keyboard-response","36","202909","0.0-36.0","","<p>Did you hear any <b>four-word</b> phrases?","","","","78"
"null","","html-button-response","37","203185","0.0-37.0","","<html></html>","null","","",""
"null","","audio-button-response","38","219827","0.0-38.0","","stimulus/mp/phrase_mix_13.wav","null","","",""
"1621.8999999999941","","html-keyboard-response","39","221452","0.0-39.0","","<p>Did you hear any <b>four-word</b> phrases?","","","","78"
"null","","html-button-response","40","221715","0.0-40.0","","<html></html>","null","","",""
"null","","audio-button-response","41","238357","0.0-41.0","","stimulus/an/ANAN_11.wav","null","","",""
"1679.6999999999825","","html-keyboard-response","42","240041","0.0-42.0","","<p>Did you hear any <b>four-word</b> phrases?","","","","78"
"null","","html-button-response","43","240310","0.0-43.0","","<html></html>","null","","",""
"null","","audio-button-response","44","256946","0.0-44.0","","stimulus/probes/phrase_mix_38.wav","null","","",""
"2357.2999999999883","","html-keyboard-response","45","259307","0.0-45.0","","<p>Did you hear any <b>four-word</b> phrases?","","","","78"
"null","","html-button-response","46","259580","0.0-46.0","","<html></html>","null","","",""
"null","","audio-button-response","47","276217","0.0-47.0","","stimulus/mp/phrase_mix_12.wav","null","","",""
"2549.7999999999883","","html-keyboard-response","48","278770","0.0-48.0","","<p>Did you hear any <b>four-word</b> phrases?","","","","78"
"null","","html-button-response","49","279045","0.0-49.0","","<html></html>","null","","",""
"null","","audio-button-response","50","295686","0.0-50.0","","stimulus/mp/phrase_mix_11.wav","null","","",""
"2120.0999999999767","","html-keyboard-response","51","297810","0.0-51.0","","<p>Did you hear any <b>four-word</b> phrases?","","","","78"
"null","","html-button-response","52","298085","0.0-52.0","","<html></html>","null","","",""
"null","","audio-button-response","53","314726","0.0-53.0","","stimulus/rr/rrrr_11.wav","null","","",""
"1114.7000000000116","","html-keyboard-response","54","315849","0.0-54.0","","<p>Did you hear any <b>four-word</b> phrases?","","","","89"
"2019.100000000035","","html-button-response","55","317875","0.0-55.0","","<p>We will now ask you some additional questions.</p>","0","","",""
"7326.700000000012","","html-keyboard-response","56","325206","0.0-56.0","","<p>In the <b>last stream of words</b> you hear any <b>two-word</b> phrases?","","","","78"
"9226.100000000035","","survey-text","57","334458","0.0-57.0","{""Q0"":""rich, thin, girl""}","","","","",""
"38405","","survey-text","58","372881","0.0-58.0","{""Q0"":""rich, thin, girl, full, dog, and, fish, out, wife, wise, well, thing,""}","","","","",""
"6708.300000000047","","survey-text","59","379609","0.0-59.0","{""Q0"":""No""}","","","","",""
