"rt","url","trial_type","trial_index","time_elapsed","internal_node_id","responses","stimulus","button_pressed","value","participant","key_press"
"8959.4","consent_form.html","external-html","0","9015","0.0-0.0","","","","","",""
"26367.799999999995","instructions.html","external-html","1","35468","0.0-1.0","","","","","",""
"9336.300000000003","","survey-text","2","44835","0.0-2.0","{""Q0"":""english""}","","","","",""
"7170.9000000000015","","html-button-response","3","52013","0.0-3.0","","<p>We need to check your headphones or speakers are working well enough for the experiment to run.</p><p>When you click continue you will hear a voice name a <b>colour</b> and you will be asked to identify the colour.</p>","0","","",""
"4469.0999999999985","","audio-button-response","4","57381","0.0-4.0","","stimulus/colour1.ogg","6","","",""
"5982","","html-button-response","5","63368","0.0-5.0","","<p>Great, that worked; just one more check! </p>","0","","",""
"","","call-function","6","63370","0.0-6.0","","","","","",""
"","","call-function","7","63370","0.0-7.0","","","","","",""
"2786.7000000000116","","audio-button-response","8","66161","0.0-8.0","","stimulus/colour3.ogg","7","","",""
"2848.2000000000116","","html-button-response","9","69014","0.0-9.0","","<p>Great, that worked! </p>","0","","",""
"3415.5999999999912","","survey-text","10","72444","0.0-10.0","{""Q0"":""5afb04f733b0ee00011f073f""}","","","","",""
"","","survey-text","10","72445","0.0-10.0","","","","","6",""
"1725.5","","html-button-response","11","74176","0.0-11.0","","<p>Press continue to start the experiment! The word streams will start after you press <b>continue</b></p>","0","","",""
"null","","html-button-response","12","74686","0.0-12.0","","<html></html>","null","","",""
"","","call-function","13","74687","0.0-13.0","","stimulus/rr/rrrr_13.wav,stimulus/an/ANAN_10.wav,stimulus/rr/rrrr_10.wav,stimulus/an/ANAN_12.wav,stimulus/probes/ANAN_89.wav,stimulus/an/ANAN_13.wav,stimulus/mp/phrase_mix_10.wav,stimulus/an/ANAN_11.wav,stimulus/mp/phrase_mix_13.wav,stimulus/rr/rrrr_11.wav,stimulus/probes/phrase_mix_38.wav,stimulus/mp/phrase_mix_11.wav,stimulus/rr/rrrr_12.wav,stimulus/mp/phrase_mix_12.wav","","","",""
"","","call-function","13","74687","0.0-13.0","","","","","",""
"null","","audio-button-response","14","91326","0.0-14.0","","stimulus/rr/rrrr_13.wav","null","","",""
"3481.899999999994","","html-keyboard-response","15","94811","0.0-15.0","","<p>Did you hear any <b>four-word</b> phrases?","","","","78"
"null","","html-button-response","16","95077","0.0-16.0","","<html></html>","null","","",""
"null","","audio-button-response","17","111716","0.0-17.0","","stimulus/an/ANAN_10.wav","null","","",""
"1306.4000000000087","","html-keyboard-response","18","113024","0.0-18.0","","<p>Did you hear any <b>four-word</b> phrases?","","","","78"
"null","","html-button-response","19","113290","0.0-19.0","","<html></html>","null","","",""
"null","","audio-button-response","20","129927","0.0-20.0","","stimulus/rr/rrrr_10.wav","null","","",""
"691.8999999999942","","html-keyboard-response","21","130620","0.0-21.0","","<p>Did you hear any <b>four-word</b> phrases?","","","","78"
"null","","html-button-response","22","130886","0.0-22.0","","<html></html>","null","","",""
"null","","audio-button-response","23","147526","0.0-23.0","","stimulus/an/ANAN_12.wav","null","","",""
"701.3000000000175","","html-keyboard-response","24","148230","0.0-24.0","","<p>Did you hear any <b>four-word</b> phrases?","","","","78"
"null","","html-button-response","25","148496","0.0-25.0","","<html></html>","null","","",""
"null","","audio-button-response","26","165136","0.0-26.0","","stimulus/probes/ANAN_89.wav","null","","",""
"690.6999999999825","","html-keyboard-response","27","165829","0.0-27.0","","<p>Did you hear any <b>four-word</b> phrases?","","","","78"
"null","","html-button-response","28","166080","0.0-28.0","","<html></html>","null","","",""
"null","","audio-button-response","29","182715","0.0-29.0","","stimulus/an/ANAN_13.wav","null","","",""
"799.3999999999942","","html-keyboard-response","30","183517","0.0-30.0","","<p>Did you hear any <b>four-word</b> phrases?","","","","78"
"null","","html-button-response","31","183784","0.0-31.0","","<html></html>","null","","",""
"null","","audio-button-response","32","200426","0.0-32.0","","stimulus/mp/phrase_mix_10.wav","null","","",""
"571.9000000000233","","html-keyboard-response","33","201000","0.0-33.0","","<p>Did you hear any <b>four-word</b> phrases?","","","","78"
"null","","html-button-response","34","201264","0.0-34.0","","<html></html>","null","","",""
"null","","audio-button-response","35","217905","0.0-35.0","","stimulus/an/ANAN_11.wav","null","","",""
"824.2000000000116","","html-keyboard-response","36","218731","0.0-36.0","","<p>Did you hear any <b>four-word</b> phrases?","","","","78"
"null","","html-button-response","37","218998","0.0-37.0","","<html></html>","null","","",""
"null","","audio-button-response","38","235634","0.0-38.0","","stimulus/mp/phrase_mix_13.wav","null","","",""
"592.5","","html-keyboard-response","39","236229","0.0-39.0","","<p>Did you hear any <b>four-word</b> phrases?","","","","78"
"null","","html-button-response","40","236495","0.0-40.0","","<html></html>","null","","",""
"null","","audio-button-response","41","253135","0.0-41.0","","stimulus/rr/rrrr_11.wav","null","","",""
"565.8999999999942","","html-keyboard-response","42","253703","0.0-42.0","","<p>Did you hear any <b>four-word</b> phrases?","","","","78"
"null","","html-button-response","43","253967","0.0-43.0","","<html></html>","null","","",""
"null","","audio-button-response","44","270604","0.0-44.0","","stimulus/probes/phrase_mix_38.wav","null","","",""
"716.7000000000116","","html-keyboard-response","45","271327","0.0-45.0","","<p>Did you hear any <b>four-word</b> phrases?","","","","78"
"null","","html-button-response","46","271592","0.0-46.0","","<html></html>","null","","",""
"null","","audio-button-response","47","288225","0.0-47.0","","stimulus/mp/phrase_mix_11.wav","null","","",""
"688.2999999999884","","html-keyboard-response","48","288915","0.0-48.0","","<p>Did you hear any <b>four-word</b> phrases?","","","","78"
"null","","html-button-response","49","289180","0.0-49.0","","<html></html>","null","","",""
"null","","audio-button-response","50","305815","0.0-50.0","","stimulus/rr/rrrr_12.wav","null","","",""
"654.3999999999651","","html-keyboard-response","51","306472","0.0-51.0","","<p>Did you hear any <b>four-word</b> phrases?","","","","78"
"null","","html-button-response","52","306736","0.0-52.0","","<html></html>","null","","",""
"null","","audio-button-response","53","323375","0.0-53.0","","stimulus/mp/phrase_mix_12.wav","null","","",""
"583.4000000000233","","html-keyboard-response","54","323962","0.0-54.0","","<p>Did you hear any <b>four-word</b> phrases?","","","","78"
"4118.799999999988","","html-button-response","55","328085","0.0-55.0","","<p>We will now ask you some additional questions.</p>","0","","",""
"5621.400000000023","","html-keyboard-response","56","333708","0.0-56.0","","<p>In the <b>last stream of words</b> you hear any <b>two-word</b> phrases?","","","","89"
"29202.70000000001","","survey-text","57","362924","0.0-57.0","{""Q0"":""old dog, fast thing, tall girl""}","","","","",""
"64666.399999999965","","survey-text","58","427603","0.0-58.0","{""Q0"":""most of the phrases seemed to be pairs of words, an adjective and a noun, they were very toneless and repetitive""}","","","","",""
"58889.5","","survey-text","59","486512","0.0-59.0","{""Q0"":""Difficult without knowing the purpose of the experiment but the words would have been easier to listen to if spoken in a normal human voice, rather than one which sounded synthesised""}","","","","",""
