"rt","url","trial_type","trial_index","time_elapsed","internal_node_id","responses","stimulus","button_pressed","value","participant","key_press"
"5437.655000016093","consent_form.html","external-html","0","5479","0.0-0.0","","","","","",""
"61373.56000003638","instructions.html","external-html","1","66943","0.0-1.0","","","","","",""
"5126.209999958519","","survey-text","2","72073","0.0-2.0","{""Q0"":""English""}","","","","",""
"4109.164999972563","","html-button-response","3","76184","0.0-3.0","","<p>We need to check your headphones or speakers are working well enough for the experiment to run.</p><p>When you click continue you will hear a voice name a <b>colour</b> and you will be asked to identify the colour.</p>","0","","",""
"3042.8050000336953","","audio-button-response","4","79229","0.0-4.0","","stimulus/colour1.ogg","6","","",""
"1173.6800000071526","","html-button-response","5","80404","0.0-5.0","","<p>Great, that worked; just one more check! </p>","0","","",""
"","","call-function","6","80404","0.0-6.0","","","","","",""
"","","call-function","7","80405","0.0-7.0","","","","","",""
"2148.940000042785","","audio-button-response","8","82554","0.0-8.0","","stimulus/colour3.ogg","7","","",""
"996.4299999992363","","html-button-response","9","83552","0.0-9.0","","<p>Great, that worked! </p>","0","","",""
"3212.9249999998137","","survey-text","10","86767","0.0-10.0","{""Q0"":""5bedc165c21b980001723c69""}","","","","",""
"","","survey-text","10","86767","0.0-10.0","","","","","10",""
"1765.2149999630637","","html-button-response","11","88534","0.0-11.0","","<p>Press continue to start the experiment! The word streams will start after you press <b>continue</b></p>","0","","",""
"null","","html-button-response","12","89036","0.0-12.0","","<html></html>","null","","",""
"","","call-function","13","89037","0.0-13.0","","stimulus/mp/phrase_mix_10.wav,stimulus/an/ANAN_11.wav,stimulus/mp/phrase_mix_13.wav,stimulus/an/ANAN_13.wav,stimulus/probes/phrase_mix_38.wav,stimulus/an/ANAN_12.wav,stimulus/mp/phrase_mix_11.wav,stimulus/mp/phrase_mix_12.wav,stimulus/rr/rrrr_10.wav,stimulus/rr/rrrr_11.wav,stimulus/probes/rrrr_17.wav,stimulus/an/ANAN_10.wav,stimulus/rr/rrrr_13.wav,stimulus/rr/rrrr_12.wav","","","",""
"","","call-function","13","89037","0.0-13.0","","","","","",""
"null","","audio-button-response","14","105677","0.0-14.0","","stimulus/mp/phrase_mix_10.wav","null","","",""
"2176.335000025574","","html-keyboard-response","15","107854","0.0-15.0","","<p>Did you hear any <b>four-word</b> phrases?","","","","78"
"null","","html-button-response","16","108105","0.0-16.0","","<html></html>","null","","",""
"null","","audio-button-response","17","124745","0.0-17.0","","stimulus/an/ANAN_11.wav","null","","",""
"1869.5000000298023","","html-keyboard-response","18","126615","0.0-18.0","","<p>Did you hear any <b>four-word</b> phrases?","","","","78"
"null","","html-button-response","19","126866","0.0-19.0","","<html></html>","null","","",""
"null","","audio-button-response","20","143498","0.0-20.0","","stimulus/mp/phrase_mix_13.wav","null","","",""
"1920.380000025034","","html-keyboard-response","21","145419","0.0-21.0","","<p>Did you hear any <b>four-word</b> phrases?","","","","78"
"null","","html-button-response","22","145670","0.0-22.0","","<html></html>","null","","",""
"null","","audio-button-response","23","162302","0.0-23.0","","stimulus/an/ANAN_13.wav","null","","",""
"1443.7599999946542","","html-keyboard-response","24","163746","0.0-24.0","","<p>Did you hear any <b>four-word</b> phrases?","","","","78"
"null","","html-button-response","25","163997","0.0-25.0","","<html></html>","null","","",""
"null","","audio-button-response","26","180628","0.0-26.0","","stimulus/probes/phrase_mix_38.wav","null","","",""
"2176.56499997247","","html-keyboard-response","27","182806","0.0-27.0","","<p>Did you hear any <b>four-word</b> phrases?","","","","89"
"null","","html-button-response","28","183058","0.0-28.0","","<html></html>","null","","",""
"null","","audio-button-response","29","199696","0.0-29.0","","stimulus/an/ANAN_12.wav","null","","",""
"1449.750000028871","","html-keyboard-response","30","201147","0.0-30.0","","<p>Did you hear any <b>four-word</b> phrases?","","","","78"
"null","","html-button-response","31","201398","0.0-31.0","","<html></html>","null","","",""
"null","","audio-button-response","32","218033","0.0-32.0","","stimulus/mp/phrase_mix_11.wav","null","","",""
"4094.1599999787286","","html-keyboard-response","33","222128","0.0-33.0","","<p>Did you hear any <b>four-word</b> phrases?","","","","78"
"null","","html-button-response","34","222379","0.0-34.0","","<html></html>","null","","",""
"null","","audio-button-response","35","239010","0.0-35.0","","stimulus/mp/phrase_mix_12.wav","null","","",""
"1531.6549999988638","","html-keyboard-response","36","240543","0.0-36.0","","<p>Did you hear any <b>four-word</b> phrases?","","","","89"
"null","","html-button-response","37","240794","0.0-37.0","","<html></html>","null","","",""
"null","","audio-button-response","38","257428","0.0-38.0","","stimulus/rr/rrrr_10.wav","null","","",""
"2279.114999982994","","html-keyboard-response","39","259708","0.0-39.0","","<p>Did you hear any <b>four-word</b> phrases?","","","","78"
"null","","html-button-response","40","259960","0.0-40.0","","<html></html>","null","","",""
"null","","audio-button-response","41","276598","0.0-41.0","","stimulus/rr/rrrr_11.wav","null","","",""
"1995.874999964144","","html-keyboard-response","42","278594","0.0-42.0","","<p>Did you hear any <b>four-word</b> phrases?","","","","78"
"null","","html-button-response","43","278846","0.0-43.0","","<html></html>","null","","",""
"null","","audio-button-response","44","295484","0.0-44.0","","stimulus/probes/rrrr_17.wav","null","","",""
"2939.1300000133924","","html-keyboard-response","45","298424","0.0-45.0","","<p>Did you hear any <b>four-word</b> phrases?","","","","78"
"null","","html-button-response","46","298675","0.0-46.0","","<html></html>","null","","",""
"null","","audio-button-response","47","315313","0.0-47.0","","stimulus/an/ANAN_10.wav","null","","",""
"2155.9049999923445","","html-keyboard-response","48","317469","0.0-48.0","","<p>Did you hear any <b>four-word</b> phrases?","","","","78"
"null","","html-button-response","49","317721","0.0-49.0","","<html></html>","null","","",""
"null","","audio-button-response","50","334360","0.0-50.0","","stimulus/rr/rrrr_13.wav","null","","",""
"1244.9149999883957","","html-keyboard-response","51","335605","0.0-51.0","","<p>Did you hear any <b>four-word</b> phrases?","","","","89"
"null","","html-button-response","52","335857","0.0-52.0","","<html></html>","null","","",""
"null","","audio-button-response","53","352493","0.0-53.0","","stimulus/rr/rrrr_12.wav","null","","",""
"1690.355000027921","","html-keyboard-response","54","354184","0.0-54.0","","<p>Did you hear any <b>four-word</b> phrases?","","","","78"
"2043.6849999823608","","html-button-response","55","356228","0.0-55.0","","<p>We will now ask you some additional questions.</p>","0","","",""
"5788.324999972247","","html-keyboard-response","56","362017","0.0-56.0","","<p>In the <b>last stream of words</b> you hear any <b>two-word</b> phrases?","","","","89"
"50117.48499999521","","survey-text","57","412144","0.0-57.0","{""Q0"":""I think I heard: slim mist, old dog, tall tree, sad girl""}","","","","",""
"31612.995000032242","","survey-text","58","443759","0.0-58.0","{""Q0"":""The same as stated previously. It was all a bit too fast for me to register so it's crossing over""}","","","","",""
"192123.25500004226","","survey-text","59","635884","0.0-59.0","{""Q0"":""Interesting though hurts my head. I'd be curious to find out the reason of the experiment as words were seemingly all recorded as two phrased (you can hear a FAINT buzz from the end of one audio clip to the next, as well as change of tone/pitch/vocal range) however each are randomly mashed together, resulting in a rare moment of the mind piecing together a coherent sentence from them to make sense of what was said. I heard at one point \""give her soft chive\"", which I'm guessing was two phrased mashed together to SEEM like it was one four worded phrase. That's my guess at least, but it hurt my brain.""}","","","","",""
