"rt","url","trial_type","trial_index","time_elapsed","internal_node_id","responses","stimulus","button_pressed","value","participant","key_press"
"43562.770000000455","consent_form.html","external-html","0","43608","0.0-0.0","","","","","",""
"16151.35499999996","instructions.html","external-html","1","59825","0.0-1.0","","","","","",""
"5032.694999999876","","survey-text","2","64886","0.0-2.0","{""Q0"":""english""}","","","","",""
"3506.615000000238","","html-button-response","3","68414","0.0-3.0","","<p>We need to check your headphones or speakers are working well enough for the experiment to run.</p><p>When you click continue you will hear a voice name a <b>colour</b> and you will be asked to identify the colour.</p>","0","","",""
"3844.540000000052","","audio-button-response","4","72274","0.0-4.0","","stimulus/colour1.ogg","6","","",""
"1376.6800000002986","","html-button-response","5","73659","0.0-5.0","","<p>Great, that worked; just one more check! </p>","0","","",""
"","","call-function","6","73666","0.0-6.0","","","","","",""
"","","call-function","7","73667","0.0-7.0","","","","","",""
"2756.2500000003492","","audio-button-response","8","76431","0.0-8.0","","stimulus/colour3.ogg","7","","",""
"1279.3449999999284","","html-button-response","9","77717","0.0-9.0","","<p>Great, that worked! </p>","0","","",""
"3908.155000000086","","survey-text","10","81636","0.0-10.0","{""Q0"":""5e41d501213470000b8403c8""}","","","","",""
"","","survey-text","10","81638","0.0-10.0","","","","","11",""
"1570.110000000568","","html-button-response","11","83214","0.0-11.0","","<p>Press continue to start the experiment! The word streams will start after you press <b>continue</b></p>","0","","",""
"null","","html-button-response","12","83727","0.0-12.0","","<html></html>","null","","",""
"","","call-function","13","83735","0.0-13.0","","stimulus/mp/phrase_mix_10.wav,stimulus/an/ANAN_10.wav,stimulus/rr/rrrr_12.wav,stimulus/mp/phrase_mix_13.wav,stimulus/probes/phrase_mix_38.wav,stimulus/mp/phrase_mix_12.wav,stimulus/an/ANAN_13.wav,stimulus/rr/rrrr_10.wav,stimulus/rr/rrrr_11.wav,stimulus/an/ANAN_12.wav,stimulus/probes/ANAN_89.wav,stimulus/an/ANAN_11.wav,stimulus/mp/phrase_mix_11.wav,stimulus/rr/rrrr_13.wav","","","",""
"","","call-function","13","83735","0.0-13.0","","","","","",""
"null","","audio-button-response","14","100378","0.0-14.0","","stimulus/mp/phrase_mix_10.wav","null","","",""
"4703.28999999947","","html-keyboard-response","15","105093","0.0-15.0","","<p>Did you hear any <b>four-word</b> phrases?","","","","89"
"null","","html-button-response","16","105357","0.0-16.0","","<html></html>","null","","",""
"null","","audio-button-response","17","122009","0.0-17.0","","stimulus/an/ANAN_10.wav","null","","",""
"3825.8049999994982","","html-keyboard-response","18","125839","0.0-18.0","","<p>Did you hear any <b>four-word</b> phrases?","","","","89"
"null","","html-button-response","19","126102","0.0-19.0","","<html></html>","null","","",""
"null","","audio-button-response","20","142748","0.0-20.0","","stimulus/rr/rrrr_12.wav","null","","",""
"2031.1299999993935","","html-keyboard-response","21","144786","0.0-21.0","","<p>Did you hear any <b>four-word</b> phrases?","","","","89"
"null","","html-button-response","22","145048","0.0-22.0","","<html></html>","null","","",""
"null","","audio-button-response","23","161690","0.0-23.0","","stimulus/mp/phrase_mix_13.wav","null","","",""
"1121.7950000000128","","html-keyboard-response","24","162814","0.0-24.0","","<p>Did you hear any <b>four-word</b> phrases?","","","","89"
"null","","html-button-response","25","163081","0.0-25.0","","<html></html>","null","","",""
"null","","audio-button-response","26","179733","0.0-26.0","","stimulus/probes/phrase_mix_38.wav","null","","",""
"2979.699999999837","","html-keyboard-response","27","182720","0.0-27.0","","<p>Did you hear any <b>four-word</b> phrases?","","","","89"
"null","","html-button-response","28","182979","0.0-28.0","","<html></html>","null","","",""
"null","","audio-button-response","29","199625","0.0-29.0","","stimulus/mp/phrase_mix_12.wav","null","","",""
"708.3450000000012","","html-keyboard-response","30","200339","0.0-30.0","","<p>Did you hear any <b>four-word</b> phrases?","","","","78"
"null","","html-button-response","31","200606","0.0-31.0","","<html></html>","null","","",""
"null","","audio-button-response","32","217255","0.0-32.0","","stimulus/an/ANAN_13.wav","null","","",""
"1298.3450000001467","","html-keyboard-response","33","218558","0.0-33.0","","<p>Did you hear any <b>four-word</b> phrases?","","","","89"
"null","","html-button-response","34","218828","0.0-34.0","","<html></html>","null","","",""
"null","","audio-button-response","35","235466","0.0-35.0","","stimulus/rr/rrrr_10.wav","null","","",""
"1396.0699999997742","","html-keyboard-response","36","236868","0.0-36.0","","<p>Did you hear any <b>four-word</b> phrases?","","","","89"
"null","","html-button-response","37","237132","0.0-37.0","","<html></html>","null","","",""
"null","","audio-button-response","38","253771","0.0-38.0","","stimulus/rr/rrrr_11.wav","null","","",""
"3047.4700000004377","","html-keyboard-response","39","256823","0.0-39.0","","<p>Did you hear any <b>four-word</b> phrases?","","","","78"
"null","","html-button-response","40","257083","0.0-40.0","","<html></html>","null","","",""
"null","","audio-button-response","41","273719","0.0-41.0","","stimulus/an/ANAN_12.wav","null","","",""
"3981.7050000001327","","html-keyboard-response","42","277712","0.0-42.0","","<p>Did you hear any <b>four-word</b> phrases?","","","","78"
"null","","html-button-response","43","277970","0.0-43.0","","<html></html>","null","","",""
"null","","audio-button-response","44","294613","0.0-44.0","","stimulus/probes/ANAN_89.wav","null","","",""
"877.0549999999348","","html-keyboard-response","45","295498","0.0-45.0","","<p>Did you hear any <b>four-word</b> phrases?","","","","89"
"null","","html-button-response","46","295770","0.0-46.0","","<html></html>","null","","",""
"null","","audio-button-response","47","312418","0.0-47.0","","stimulus/an/ANAN_11.wav","null","","",""
"839.045000000624","","html-keyboard-response","48","313263","0.0-48.0","","<p>Did you hear any <b>four-word</b> phrases?","","","","89"
"null","","html-button-response","49","313523","0.0-49.0","","<html></html>","null","","",""
"null","","audio-button-response","50","330174","0.0-50.0","","stimulus/mp/phrase_mix_11.wav","null","","",""
"1235.0750000005355","","html-keyboard-response","51","331423","0.0-51.0","","<p>Did you hear any <b>four-word</b> phrases?","","","","89"
"null","","html-button-response","52","331684","0.0-52.0","","<html></html>","null","","",""
"null","","audio-button-response","53","348339","0.0-53.0","","stimulus/rr/rrrr_13.wav","null","","",""
"2017.284999999858","","html-keyboard-response","54","350365","0.0-54.0","","<p>Did you hear any <b>four-word</b> phrases?","","","","89"
"2892.950000000419","","html-button-response","55","353262","0.0-55.0","","<p>We will now ask you some additional questions.</p>","0","","",""
"8667.155000000144","","html-keyboard-response","56","361934","0.0-56.0","","<p>In the <b>last stream of words</b> you hear any <b>two-word</b> phrases?","","","","89"
"14419.70500000025","","survey-text","57","376386","0.0-57.0","{""Q0"":""her""}","","","","",""
"18500.660000000615","","survey-text","58","394897","0.0-58.0","{""Q0"":""food her sheep lamp""}","","","","",""
"8072.479999999807","","survey-text","59","402983","0.0-59.0","{""Q0"":""no""}","","","","",""
